File: Experiment 3 - Quantum Dots/H2 Analysis/unfiltered excited h2.txt
# Wavelength (nm), Intensity
175.94	1298.41
176.61	1259.50
177.27	1287.99
177.93	1287.43
178.59	1291.15
179.25	1293.01
179.91	1285.94
180.58	1289.85
181.24	1287.24
181.90	1284.08
182.56	1293.39
183.22	1298.04
183.88	1291.34
184.54	1284.26
185.20	1285.57
185.86	1266.95
186.52	1283.52
187.18	1289.48
187.84	1293.76
188.50	1301.02
189.16	1304.74
189.82	1294.87
190.48	1299.34
191.14	1292.27
191.80	1289.66
192.46	1299.72
193.12	1279.79
193.78	1278.49
194.44	1278.30
195.10	1274.95
195.76	1290.22
196.42	1288.73
197.08	1284.63
197.73	1287.06
198.39	1293.01
199.05	1288.17
199.71	1285.94
200.37	1285.75
201.03	1295.81
201.68	1302.69
202.34	1301.58
203.00	1292.64
203.66	1289.10
204.31	1290.03
204.97	1300.46
205.63	1304.93
206.29	1295.62
206.94	1293.01
207.60	1291.90
208.26	1291.71
208.91	1289.85
209.57	1291.71
210.23	1294.32
210.88	1292.45
211.54	1297.85
212.20	1288.73
212.85	1286.50
213.51	1284.82
214.17	1292.45
214.82	1290.78
215.48	1290.59
216.13	1291.34
216.79	1285.94
217.44	1286.50
218.10	1277.93
218.75	1282.40
219.41	1274.21
220.06	1271.04
220.72	1274.95
221.37	1277.93
222.03	1286.12
222.68	1299.53
223.34	1305.67
223.99	1304.18
224.65	1300.83
225.30	1287.06
225.95	1280.91
226.61	1283.89
227.26	1284.63
227.92	1286.50
228.57	1289.10
229.22	1293.94
229.88	1301.20
230.53	1294.87
231.18	1306.05
231.84	1303.81
232.49	1290.41
233.14	1285.19
233.79	1269.00
234.45	1261.92
235.10	1273.46
235.75	1278.68
236.40	1287.24
237.06	1296.55
237.71	1300.65
238.36	1304.18
239.01	1310.70
239.66	1311.63
240.31	1302.69
240.97	1296.55
241.62	1285.94
242.27	1284.45
242.92	1277.19
243.57	1280.17
244.22	1288.73
244.87	1302.14
245.52	1303.63
246.17	1302.51
246.82	1294.87
247.47	1293.20
248.13	1292.27
248.78	1285.57
249.43	1281.28
250.08	1282.03
250.73	1291.52
251.37	1291.71
252.02	1301.95
252.67	1285.19
253.32	1291.52
253.97	1288.73
254.62	1288.73
255.27	1294.50
255.92	1283.52
256.57	1286.12
257.22	1288.73
257.87	1288.73
258.51	1279.98
259.16	1277.00
259.81	1278.68
260.46	1277.00
261.11	1297.30
261.76	1301.76
262.40	1299.34
263.05	1301.20
263.70	1283.15
264.35	1278.68
264.99	1282.59
265.64	1276.26
266.29	1283.52
266.94	1272.35
267.58	1278.68
268.23	1283.15
268.88	1297.67
269.52	1300.46
270.17	1306.60
270.82	1304.56
271.46	1290.03
272.11	1289.10
272.75	1285.19
273.40	1289.10
274.05	1295.43
274.69	1308.47
275.34	1303.07
275.98	1287.24
276.63	1271.42
277.27	1252.98
277.92	1266.02
278.56	1278.49
279.21	1296.36
279.85	1298.04
280.50	1286.50
281.14	1277.19
281.79	1275.88
282.43	1288.92
283.08	1283.70
283.72	1292.08
284.36	1294.13
285.01	1309.21
285.65	1309.40
286.30	1298.23
286.94	1282.21
287.58	1278.86
288.23	1281.66
288.87	1283.70
289.51	1290.41
290.16	1287.80
290.80	1285.94
291.44	1292.08
292.08	1282.96
292.73	1282.96
293.37	1289.10
294.01	1301.39
294.65	1318.33
295.30	1320.75
295.94	1309.40
296.58	1302.51
297.22	1295.99
297.86	1298.04
298.51	1299.90
299.15	1306.98
299.79	1301.95
300.43	1292.45
301.07	1285.57
301.71	1280.73
302.35	1277.37
302.99	1287.24
303.63	1290.59
304.28	1288.92
304.92	1291.15
305.56	1298.78
306.20	1309.21
306.84	1311.07
307.48	1309.58
308.12	1306.23
308.76	1301.95
309.40	1298.04
310.04	1301.02
310.67	1312.75
311.31	1323.36
311.95	1320.94
312.59	1317.40
313.23	1325.59
313.87	1314.61
314.51	1313.68
315.15	1311.26
315.79	1301.58
316.42	1302.69
317.06	1310.33
317.70	1304.18
318.34	1313.49
318.98	1322.06
319.62	1336.02
320.25	1341.42
320.89	1332.30
321.53	1330.06
322.17	1326.71
322.80	1319.45
323.44	1322.43
324.08	1325.59
324.71	1308.65
325.35	1312.00
325.99	1304.00
326.62	1314.05
327.26	1324.85
327.90	1330.81
328.53	1331.18
329.17	1322.99
329.81	1316.47
330.44	1309.02
331.08	1310.51
331.71	1311.44
332.35	1317.59
332.98	1321.13
333.62	1322.62
334.25	1328.20
334.89	1326.53
335.52	1333.79
336.16	1339.00
336.79	1338.25
337.43	1334.53
338.06	1333.04
338.70	1325.97
339.33	1332.86
339.97	1336.21
340.60	1328.95
341.23	1321.68
341.87	1316.84
342.50	1313.12
343.14	1324.10
343.77	1328.57
344.40	1334.34
345.04	1341.79
345.67	1324.48
346.30	1323.73
346.94	1323.55
347.57	1314.98
348.20	1328.39
348.83	1323.55
349.47	1321.87
350.10	1318.71
350.73	1320.38
351.36	1318.15
351.99	1312.56
352.63	1320.38
353.26	1322.62
353.89	1314.42
354.52	1311.26
355.15	1299.16
355.78	1293.94
356.42	1303.25
357.05	1306.23
357.68	1316.47
358.31	1315.54
358.94	1308.28
359.57	1321.31
360.20	1317.96
360.83	1313.87
361.46	1314.42
362.09	1322.80
362.72	1326.71
363.35	1330.25
363.98	1325.97
364.61	1321.68
365.24	1334.53
365.87	1336.39
366.50	1332.30
367.13	1336.58
367.76	1327.46
368.39	1331.55
369.01	1337.70
369.64	1343.28
370.27	1331.92
370.90	1326.90
371.53	1326.71
372.16	1321.87
372.79	1321.68
373.41	1335.09
374.04	1340.12
374.67	1357.80
375.30	1348.68
375.92	1328.20
376.55	1328.39
377.18	1322.62
377.81	1324.66
378.43	1328.57
379.06	1330.62
379.69	1335.09
380.31	1334.34
380.94	1324.48
381.57	1328.20
382.19	1322.24
382.82	1318.15
383.45	1310.14
384.07	1309.21
384.70	1306.42
385.32	1320.57
385.95	1333.41
386.58	1335.65
387.20	1343.47
387.83	1355.20
388.45	1353.71
389.08	1357.62
389.70	1339.37
390.33	1326.71
390.95	1317.77
391.58	1306.98
392.20	1307.35
392.82	1326.34
393.45	1331.92
394.07	1333.04
394.70	1343.28
395.32	1363.39
395.94	1384.99
396.57	1398.95
397.19	1395.78
397.82	1382.94
398.44	1357.24
399.06	1338.44
399.69	1331.92
400.31	1335.46
400.93	1332.48
401.55	1337.70
402.18	1328.95
402.80	1320.20
403.42	1331.74
404.04	1330.99
404.67	1330.06
405.29	1333.04
405.91	1325.97
406.53	1322.62
407.15	1328.76
407.77	1326.34
408.40	1366.93
409.02	1442.14
409.64	1533.00
410.26	1582.89
410.88	1543.61
411.50	1458.71
412.12	1364.69
412.74	1314.98
413.36	1312.38
413.98	1316.10
414.60	1315.17
415.22	1322.06
415.84	1320.75
416.46	1318.33
417.08	1330.43
417.70	1335.28
418.32	1326.53
418.94	1316.29
419.56	1304.00
420.18	1305.11
420.80	1303.81
421.42	1301.95
422.04	1305.30
422.66	1309.96
423.28	1310.89
423.89	1324.66
424.51	1322.80
425.13	1340.49
425.75	1328.01
426.37	1328.95
426.98	1332.48
427.60	1315.17
428.22	1313.31
428.84	1314.80
429.45	1311.07
430.07	1317.77
430.69	1311.26
431.31	1303.25
431.92	1356.31
432.54	1600.39
433.16	2010.92
433.77	2364.85
434.39	2452.54
435.01	2195.24
435.62	1785.27
436.24	1491.67
436.85	1364.32
437.47	1334.16
438.08	1320.38
438.70	1314.80
439.32	1325.97
439.93	1330.43
440.55	1322.43
441.16	1328.76
441.78	1312.75
442.39	1312.93
443.01	1330.81
443.62	1331.92
444.23	1331.18
444.85	1328.57
445.46	1331.18
446.08	1325.78
446.69	1326.34
447.31	1332.30
447.92	1325.97
448.53	1321.31
449.15	1322.99
449.76	1324.29
450.37	1322.06
450.99	1318.33
451.60	1311.07
452.21	1299.16
452.82	1307.53
453.44	1303.81
454.05	1302.88
454.66	1314.98
455.27	1317.77
455.89	1335.65
456.50	1346.82
457.11	1362.64
457.72	1363.76
458.33	1349.98
458.95	1323.73
459.56	1313.68
460.17	1301.58
460.78	1311.63
461.39	1326.90
462.00	1347.00
462.61	1353.71
463.22	1355.57
463.83	1341.23
464.44	1319.08
465.05	1305.49
465.66	1294.32
466.27	1299.72
466.88	1315.91
467.49	1320.75
468.10	1323.36
468.71	1324.85
469.32	1317.96
469.93	1314.61
470.54	1316.10
471.15	1315.73
471.76	1318.71
472.37	1314.61
472.98	1323.92
473.59	1344.40
474.19	1352.78
474.80	1344.77
475.41	1341.98
476.02	1344.21
476.63	1343.65
477.24	1351.66
477.84	1349.80
478.45	1347.38
479.06	1351.10
479.67	1364.32
480.27	1368.79
480.88	1372.88
481.49	1386.29
482.09	1400.25
482.70	1420.36
483.31	1433.39
483.91	1715.83
484.52	4119.21
485.13	8527.56
485.73	12833.88
486.34	15307.26
486.94	13567.79
487.55	9416.00
488.16	5451.51
488.76	2805.72
489.37	1722.90
489.97	1460.76
490.58	1403.42
491.18	1386.10
491.79	1383.31
492.39	1396.34
493.00	1386.29
493.60	1385.54
494.21	1380.70
494.81	1366.74
495.41	1363.39
496.02	1352.03
496.62	1347.00
497.23	1350.36
497.83	1341.23
498.43	1333.23
499.04	1342.16
499.64	1337.51
500.24	1338.25
500.85	1336.02
501.45	1339.37
502.05	1350.91
502.65	1346.07
503.26	1339.37
503.86	1332.11
504.46	1320.01
505.06	1330.43
505.67	1333.60
506.27	1338.07
506.87	1346.07
507.47	1335.65
508.07	1322.99
508.67	1317.96
509.28	1319.82
509.88	1323.92
510.48	1330.62
511.08	1321.31
511.68	1326.53
512.28	1327.08
512.88	1321.87
513.48	1340.30
514.08	1332.67
514.68	1326.53
515.28	1325.22
515.88	1326.71
516.48	1325.04
517.08	1334.34
517.68	1327.27
518.28	1330.99
518.88	1329.32
519.48	1335.83
520.08	1339.19
520.68	1328.57
521.28	1318.52
521.87	1308.28
522.47	1307.91
523.07	1309.58
523.67	1314.61
524.27	1328.76
524.87	1330.62
525.46	1320.57
526.06	1316.10
526.66	1317.40
527.26	1321.87
527.85	1327.46
528.45	1325.97
529.05	1329.32
529.65	1326.90
530.24	1334.72
530.84	1346.26
531.44	1342.16
532.03	1331.74
532.63	1336.39
533.22	1321.13
533.82	1326.53
534.42	1325.04
535.01	1315.17
535.61	1309.40
536.20	1310.14
536.80	1317.40
537.39	1314.98
537.99	1323.17
538.59	1331.18
539.18	1335.83
539.78	1346.07
540.37	1345.52
540.96	1336.39
541.56	1347.19
542.15	1357.80
542.75	1347.19
543.34	1343.28
543.94	1338.63
544.53	1322.43
545.12	1331.18
545.72	1322.99
546.31	1326.53
546.90	1324.66
547.50	1331.18
548.09	1323.17
548.68	1323.55
549.28	1311.82
549.87	1307.72
550.46	1307.35
551.05	1308.47
551.65	1312.19
552.24	1323.73
552.83	1328.76
553.42	1320.20
554.01	1309.58
554.61	1315.73
555.20	1307.91
555.79	1323.55
556.38	1328.57
556.97	1326.53
557.56	1323.17
558.15	1313.68
558.74	1315.54
559.33	1320.20
559.93	1319.64
560.52	1335.28
561.11	1333.41
561.70	1326.15
562.29	1314.05
562.88	1303.25
563.47	1306.60
564.06	1310.89
564.64	1327.64
565.23	1331.74
565.82	1338.44
566.41	1335.83
567.00	1323.17
567.59	1339.56
568.18	1343.47
568.77	1344.96
569.36	1344.77
569.94	1341.23
570.53	1333.79
571.12	1339.74
571.71	1353.52
572.30	1349.05
572.88	1360.78
573.47	1362.64
574.06	1351.85
574.65	1348.68
575.23	1354.45
575.82	1366.18
576.41	1360.04
576.99	1363.39
577.58	1367.67
578.17	1368.79
578.75	1374.37
579.34	1366.74
579.93	1380.89
580.51	1390.38
581.10	1404.16
581.68	1406.40
582.27	1416.08
582.86	1418.68
583.44	1423.52
584.03	1393.92
584.61	1371.77
585.20	1360.04
585.78	1343.65
586.37	1365.81
586.95	1372.51
587.54	1373.44
588.12	1383.50
588.70	1382.57
589.29	1376.05
589.87	1364.51
590.46	1357.99
591.04	1351.47
591.62	1374.75
592.21	1392.25
592.79	1403.60
593.37	1411.61
593.96	1396.53
594.54	1391.69
595.12	1368.23
595.70	1354.08
596.29	1350.36
596.87	1357.80
597.45	1367.67
598.03	1387.03
598.62	1396.16
599.20	1375.30
599.78	1376.98
600.36	1350.17
600.94	1362.27
601.52	1373.07
602.10	1376.79
602.69	1384.05
603.27	1392.62
603.85	1396.16
604.43	1386.10
605.01	1381.63
605.59	1359.67
606.17	1362.64
606.75	1363.95
607.33	1368.23
607.91	1366.93
608.49	1363.76
609.07	1366.93
609.65	1359.67
610.23	1362.27
610.81	1366.93
611.39	1373.63
611.97	1374.93
612.54	1378.84
613.12	1380.14
613.70	1376.05
614.28	1379.21
614.86	1370.65
615.44	1355.57
616.01	1345.52
616.59	1338.63
617.17	1336.39
617.75	1340.67
618.33	1346.07
618.90	1345.52
619.48	1334.34
620.06	1330.99
620.63	1328.20
621.21	1330.25
621.79	1327.64
622.36	1333.04
622.94	1337.14
623.52	1344.77
624.09	1348.12
624.67	1346.45
625.25	1347.56
625.82	1346.63
626.40	1336.77
626.97	1342.72
627.55	1354.27
628.12	1355.76
628.70	1376.42
629.27	1376.05
629.85	1373.44
630.42	1372.51
631.00	1374.00
631.57	1378.10
632.15	1376.24
632.72	1394.29
633.29	1400.25
633.87	1392.80
634.44	1391.87
635.02	1387.22
635.59	1385.17
636.16	1390.38
636.74	1389.08
637.31	1390.01
637.88	1380.14
638.46	1381.45
639.03	1387.22
639.60	1388.90
640.17	1390.01
640.75	1393.36
641.32	1395.04
641.89	1399.88
642.46	1415.33
643.03	1435.44
643.61	1433.95
644.18	1448.84
644.75	1438.05
645.32	1432.65
645.89	1431.90
646.46	1440.09
647.03	1448.47
647.60	1447.17
648.17	1453.50
648.75	1460.39
649.32	1471.19
649.89	1494.46
650.46	1501.16
651.03	1538.77
651.60	1590.90
652.17	1668.91
652.74	1744.50
653.30	1804.45
653.87	2028.79
654.44	8541.71
655.01	25676.13
655.58	43023.54
656.15	59566.66
656.72	65535.00
657.29	65535.00
657.86	63951.92
658.42	49011.99
658.99	32292.00
659.56	15089.62
660.13	3969.34
660.69	2338.41
661.26	1865.33
661.83	1702.79
662.40	1601.33
662.96	1536.72
663.53	1489.43
664.10	1458.53
664.66	1454.24
665.23	1444.19
665.80	1432.46
666.36	1414.96
666.93	1403.79
667.50	1401.18
668.06	1392.99
668.63	1392.62
669.19	1380.70
669.76	1369.90
670.32	1369.35
670.89	1354.27
671.46	1366.18
672.02	1372.14
672.59	1364.32
673.15	1365.25
673.71	1346.63
674.28	1355.94
674.84	1350.54
675.41	1336.58
675.97	1341.98
676.54	1339.56
677.10	1344.03
677.66	1345.70
678.23	1334.34
678.79	1339.19
679.35	1343.65
679.92	1344.21
680.48	1334.16
681.04	1331.18
681.60	1328.39
682.17	1318.33
682.73	1331.55
683.29	1337.32
683.85	1347.94
684.42	1343.65
684.98	1347.19
685.54	1334.90
686.10	1328.57
686.66	1322.80
687.22	1320.20
687.78	1314.05
688.35	1314.05
688.91	1305.86
689.47	1312.93
690.03	1307.72
690.59	1310.89
691.15	1320.94
691.71	1312.19
692.27	1320.38
692.83	1306.42
693.39	1301.58
693.95	1289.85
694.51	1295.06
695.07	1296.36
695.63	1305.86
696.19	1308.28
696.75	1321.31
697.30	1314.24
697.86	1309.21
698.42	1307.91
698.98	1293.76
699.54	1299.34
700.10	1298.41
700.65	1298.78
701.21	1300.27
701.77	1306.23
702.33	1300.83
702.89	1311.26
703.44	1302.88
704.00	1300.65
704.56	1306.79
705.11	1286.87
705.67	1289.48
706.23	1294.87
706.78	1308.47
707.34	1324.66
707.90	1318.71
708.45	1316.84
709.01	1312.00
709.56	1314.98
710.12	1315.73
710.68	1327.27
711.23	1311.82
711.79	1311.07
712.34	1317.96
712.90	1315.54
713.45	1320.01
714.01	1312.75
714.56	1303.07
715.12	1301.76
715.67	1297.11
716.22	1298.97
716.78	1307.35
717.33	1309.96
717.89	1310.70
718.44	1311.82
718.99	1320.01
719.55	1313.31
720.10	1312.93
720.65	1299.90
721.21	1296.92
721.76	1303.63
722.31	1300.83
722.86	1304.93
723.42	1311.26
723.97	1309.96
724.52	1306.98
725.07	1305.86
725.62	1309.40
726.18	1307.16
726.73	1310.51
727.28	1298.60
727.83	1302.32
728.38	1320.20
728.93	1328.01
729.48	1338.25
730.03	1330.81
730.58	1321.31
731.13	1312.38
731.69	1314.61
732.24	1308.47
732.79	1302.69
733.34	1304.18
733.89	1300.09
734.43	1299.34
734.98	1301.95
735.53	1296.92
736.08	1299.72
736.63	1304.56
737.18	1303.44
737.73	1302.69
738.28	1298.41
738.83	1290.22
739.38	1288.17
739.92	1283.89
740.47	1297.67
741.02	1310.33
741.57	1309.21
742.11	1299.34
742.66	1295.25
743.21	1300.83
743.76	1304.18
744.30	1306.60
744.85	1304.00
745.40	1308.28
745.94	1293.20
746.49	1305.67
747.04	1295.99
747.58	1299.53
748.13	1297.67
748.68	1293.94
749.22	1297.85
749.77	1300.09
750.31	1308.47
750.86	1306.23
751.40	1306.05
751.95	1311.26
752.49	1295.06
753.04	1302.14
753.58	1314.61
754.13	1306.05
754.67	1319.82
755.22	1315.54
755.76	1301.02
756.30	1311.63
756.85	1306.42
757.39	1306.05
757.94	1314.61
758.48	1308.47
759.02	1313.68
759.57	1319.26
760.11	1317.40
760.65	1323.73
761.19	1312.75
761.74	1309.21
762.28	1289.66
762.82	1287.24
763.36	1298.41
763.91	1301.20
764.45	1301.20
764.99	1294.69
765.53	1298.04
766.07	1296.55
766.61	1303.63
767.16	1306.60
767.70	1295.06
768.24	1302.88
768.78	1299.72
769.32	1289.66
769.86	1298.78
770.40	1293.76
770.94	1291.52
771.48	1291.90
772.02	1287.06
772.56	1287.99
773.10	1302.14
773.64	1306.05
774.18	1309.21
774.72	1307.16
775.26	1306.98
775.80	1305.30
776.33	1312.93
776.87	1317.77
777.41	1320.75
777.95	1317.96
778.49	1311.26
779.03	1310.14
779.56	1316.29
780.10	1327.08
780.64	1325.04
781.18	1317.40
781.71	1316.47
782.25	1306.79
782.79	1301.39
783.33	1290.41
783.86	1294.50
784.40	1294.50
784.94	1292.27
785.47	1294.32
786.01	1283.15
786.54	1289.10
787.08	1288.54
787.62	1286.31
788.15	1296.18
788.69	1304.18
789.22	1300.46
789.76	1302.88
790.29	1299.90
790.83	1299.90
791.36	1303.63
791.90	1273.46
792.43	1283.33
792.97	1277.93
793.50	1290.97
794.03	1288.54
794.57	1292.45
795.10	1289.29
795.64	1285.75
796.17	1281.10
796.70	1283.15
797.24	1281.10
797.77	1289.85
798.30	1285.19
798.83	1282.59
799.37	1284.82
799.90	1284.26
800.43	1292.08
800.96	1287.24
801.50	1288.54
802.03	1289.10
802.56	1296.18
803.09	1302.14
803.62	1290.97
804.15	1292.08
804.69	1302.14
805.22	1307.91
805.75	1319.64
806.28	1309.02
806.81	1297.85
807.34	1295.81
807.87	1295.06
808.40	1297.85
808.93	1298.23
809.46	1306.23
809.99	1306.79
810.52	1309.77
811.05	1310.70
811.58	1303.07
812.11	1297.11
812.64	1295.81
813.16	1303.63
813.69	1305.49
814.22	1303.07
814.75	1306.60
815.28	1303.63
815.81	1302.69
816.34	1298.97
816.86	1291.71
817.39	1301.39
817.92	1294.69
818.45	1292.08
818.97	1287.61
819.50	1290.78
820.03	1297.11
820.55	1317.96
821.08	1313.31
821.61	1300.27
822.13	1297.30
822.66	1283.33
823.19	1291.34
823.71	1295.25
824.24	1291.90
824.76	1289.85
825.29	1290.97
825.81	1290.03
826.34	1297.11
826.87	1297.48
827.39	1291.15
827.91	1289.29
828.44	1286.12
828.96	1287.06
829.49	1294.87
830.01	1307.16
830.54	1305.49
831.06	1304.37
831.58	1296.18
832.11	1288.92
832.63	1294.50
833.16	1298.78
833.68	1302.51
834.20	1301.76
834.72	1293.01
835.25	1297.11
835.77	1283.33
836.29	1283.52
836.81	1280.91
837.34	1283.52
837.86	1279.98
838.38	1279.79
838.90	1287.80
839.42	1282.21
839.95	1278.49
840.47	1276.44
840.99	1268.25
841.51	1260.62
842.03	1264.53
842.55	1263.97
843.07	1278.68
843.59	1284.82
844.11	1290.78
844.63	1298.41
845.15	1302.14
845.67	1306.05
846.19	1306.79
846.71	1285.01
847.23	1284.26
847.75	1289.10
848.27	1299.16
848.79	1303.44
849.31	1311.63
849.83	1308.47
850.34	1293.39
850.86	1295.62
851.38	1297.30
851.90	1293.20
852.42	1289.29
852.93	1286.50
853.45	1301.76
853.97	1314.98
854.49	1320.75
855.00	1322.43
855.52	1301.76
856.04	1287.43
856.56	1284.26
857.07	1274.40
857.59	1284.82
858.10	1283.15
858.62	1285.75
859.14	1293.76
859.65	1295.99
860.17	1295.99
860.68	1283.70
861.20	1302.14
861.71	1300.65
862.23	1291.34
862.74	1296.74
863.26	1286.31
863.77	1291.34
864.29	1295.81
864.80	1286.50
865.32	1290.41
865.83	1303.63
866.35	1291.34
866.86	1296.92
867.37	1283.15
867.89	1290.41
868.40	1286.50
868.91	1288.73
869.43	1286.87
869.94	1275.14
870.45	1286.50
870.96	1292.45
871.48	1304.56
871.99	1291.71
872.50	1289.48
873.01	1283.70
873.53	1285.75
874.04	1292.27
874.55	1298.41
875.06	1299.90
875.57	1298.04
876.08	1293.57
876.59	1298.60
877.10	1307.35
877.61	1288.92
878.13	1291.90
878.64	1282.21
879.15	1276.63
879.66	1280.91
880.17	1295.43
880.68	1306.60
881.19	1310.33
881.69	1314.42
882.20	1308.65
882.71	1295.25
883.22	1295.99
883.73	1299.90
884.24	1295.06
884.75	1288.54
885.26	1282.96
885.77	1277.19
886.27	1286.12
886.78	1293.76
887.29	1303.07
887.80	1307.35
888.30	1304.74
888.81	1298.04
889.32	1292.27
889.83	1281.47
890.33	1275.88
890.84	1279.61
891.35	1282.03
891.68	1306.60