File: Experiment 3 - Quantum Dots/Spectroscopy/Cenco Quantum Dots/red.txt
# Wavelength (nm), Intensity (colors)
175.94	1261.55
176.61	1236.97
177.27	2892.48
177.93	3583.39
178.59	3770.12
179.25	3776.27
179.91	3763.61
180.58	3690.63
181.24	3695.28
181.90	3572.40
182.56	3599.03
183.22	3580.41
183.88	3478.57
184.54	3522.69
185.20	3554.53
185.86	3593.44
186.52	3782.41
187.18	3840.50
187.84	3844.41
188.50	3818.53
189.16	3716.50
189.82	3553.78
190.48	3510.78
191.14	3442.26
191.80	3543.36
192.46	3636.63
193.12	3563.28
193.78	3425.69
194.44	3553.78
195.10	3634.03
195.76	3624.35
196.42	3553.41
197.08	3397.02
197.73	3387.53
198.39	3439.47
199.05	3521.39
199.71	3704.03
200.37	3525.30
201.03	3414.71
201.68	3435.00
202.34	3371.33
203.00	3497.56
203.66	3505.56
204.31	3506.31
204.97	3417.69
205.63	3767.70
206.29	4016.07
206.94	4048.83
207.60	3912.55
208.26	3596.98
208.91	3490.86
209.57	3441.70
210.23	3485.27
210.88	3538.33
211.54	3528.09
212.20	3726.37
212.85	3488.62
213.51	3396.28
214.17	3416.20
214.82	3203.95
215.48	3310.63
216.13	3478.38
216.79	3490.11
217.44	3655.07
218.10	3509.47
218.75	3454.36
219.41	3484.90
220.06	3478.75
220.72	3538.70
221.37	3657.49
222.03	3642.03
222.68	3814.06
223.34	3843.66
223.99	3847.76
224.65	3666.98
225.30	3515.80
225.95	3531.82
226.61	3469.45
227.26	3731.03
227.92	3857.26
228.57	3625.46
229.22	3420.29
229.88	3394.23
230.53	3364.81
231.18	3534.79
231.84	3590.28
232.49	3631.61
233.14	3595.49
233.79	3452.13
234.45	3456.97
235.10	3375.42
235.75	3381.38
236.40	3482.11
237.06	3542.61
237.71	3607.40
238.36	3547.83
239.01	3296.30
239.66	3144.19
240.31	3217.55
240.97	3309.15
241.62	3308.59
242.27	3292.76
242.92	3278.24
243.57	3205.07
244.22	3599.21
244.87	3677.41
245.52	3588.97
246.17	3476.89
246.82	3273.40
247.47	3295.00
248.13	3388.09
248.78	3459.02
249.43	3365.37
250.08	3378.78
250.73	3376.73
251.37	3471.31
252.02	3723.58
252.67	3729.35
253.32	3618.02
253.97	3533.86
254.62	3278.05
255.27	3176.21
255.92	3151.45
256.57	3159.46
257.22	3295.00
257.87	3335.40
258.51	3275.63
259.16	3272.28
259.81	3157.97
260.46	3193.71
261.11	3286.80
261.76	3383.06
262.40	3376.54
263.05	3393.86
263.70	3403.72
264.35	3314.92
264.99	3306.54
265.64	3272.84
266.29	3359.97
266.94	3461.44
267.58	3421.04
268.23	3376.73
268.88	3262.79
269.52	3241.56
270.17	3450.27
270.82	3489.37
271.46	3815.74
272.11	3870.29
272.75	3841.43
273.40	3760.82
274.05	3492.72
274.69	3338.00
275.34	3320.50
275.98	3379.33
276.63	3471.87
277.27	3325.16
277.92	3313.80
278.56	3384.36
279.21	3448.22
279.85	3502.96
280.50	3603.12
281.14	3669.40
281.79	3430.72
282.43	3413.59
283.08	3246.40
283.72	3341.91
284.36	3308.03
285.01	3275.07
285.65	3376.73
286.30	3327.02
286.94	3400.00
287.58	3305.24
288.23	3229.27
288.87	3216.80
289.51	3092.62
290.16	3112.17
290.80	3278.24
291.44	3292.02
292.08	3421.22
292.73	3559.74
293.37	3477.82
294.01	3680.20
294.65	3808.29
295.30	3633.84
295.94	3685.79
296.58	3510.78
297.22	3432.95
297.86	3486.95
298.51	3323.85
299.15	3348.43
299.79	3409.50
300.43	3281.03
301.07	3468.89
301.71	3420.67
302.35	3316.96
302.99	3376.36
303.63	3268.00
304.28	3344.71
304.92	3450.64
305.56	3439.47
306.20	3383.80
306.84	3382.69
307.48	3332.23
308.12	3347.31
308.76	3349.92
309.40	3165.60
310.04	3008.09
310.67	3048.31
311.31	3190.74
311.95	3304.49
312.59	3264.65
313.23	3378.40
313.87	3213.08
314.51	3208.79
315.15	3264.65
315.79	3210.47
316.42	3224.62
317.06	3276.01
317.70	3085.92
318.34	3112.35
318.98	3072.70
319.62	3189.62
320.25	3285.69
320.89	3297.04
321.53	3200.98
322.17	3162.81
322.80	3077.54
323.44	3291.27
324.08	3295.74
324.71	3336.51
325.35	3325.90
325.99	3285.87
326.62	3394.79
327.26	3227.60
327.90	3226.67
328.53	3298.35
329.17	3232.63
329.81	3292.02
330.44	3281.78
331.08	3215.68
331.71	3324.97
332.35	3354.20
332.98	3299.28
333.62	3285.87
334.25	3300.02
334.89	3207.31
335.52	3086.85
336.16	3194.27
336.79	3168.58
337.43	3094.48
338.06	3106.21
338.70	3135.81
339.33	3141.77
339.97	3219.03
340.60	3397.39
341.23	3334.47
341.87	3320.50
342.50	3296.67
343.14	3176.96
343.77	3144.19
344.40	3244.91
345.04	3169.88
345.67	3231.14
346.30	3287.73
346.94	3253.66
347.57	3292.02
348.20	3273.58
348.83	3371.14
349.47	3383.06
350.10	3438.91
350.73	3417.87
351.36	3346.01
351.99	3342.47
352.63	3361.83
353.26	3278.43
353.89	3130.97
354.52	3114.59
355.15	3208.42
355.78	3332.79
356.42	3402.61
357.05	3388.09
357.68	3387.53
358.31	3184.78
358.94	3190.18
359.57	3325.34
360.20	3374.87
360.83	3375.24
361.46	3345.08
362.09	3234.49
362.72	3305.79
363.35	3312.87
363.98	3285.69
364.61	3559.00
365.24	3670.33
365.87	3574.26
366.50	3677.97
367.13	3678.52
367.76	3425.88
368.39	3628.07
369.01	3520.46
369.64	3476.52
370.27	3416.76
370.90	3255.15
371.53	3219.59
372.16	3266.70
372.79	3407.26
373.41	3421.78
374.04	3474.84
374.67	3513.38
375.30	3505.01
375.92	3212.89
376.55	3272.84
377.18	3490.67
377.81	3493.65
378.43	3610.38
379.06	3534.24
379.69	3510.59
380.31	3501.84
380.94	3556.02
381.57	3587.48
382.19	3333.72
382.82	3318.45
383.45	3310.82
384.07	3249.94
384.70	3378.40
385.32	3238.96
385.95	3201.16
386.58	3289.22
387.20	3251.43
387.83	3315.29
388.45	3336.89
389.08	3298.72
389.70	3298.91
390.33	3444.68
390.95	3594.74
391.58	3671.82
392.20	3558.62
392.82	3518.78
393.45	3428.11
394.07	3609.27
394.70	3761.19
395.32	3814.99
395.94	3946.25
396.57	3801.40
397.19	3853.35
397.82	3760.82
398.44	3819.83
399.06	4137.46
399.69	4213.97
400.31	4292.54
400.93	4176.37
401.55	4047.34
402.18	4170.97
402.80	4200.01
403.42	4408.53
404.04	4391.59
404.67	4430.69
405.29	4485.24
405.91	4307.81
406.53	4210.25
407.15	4199.08
407.77	4014.20
408.40	3815.37
409.02	3906.59
409.64	3819.28
410.26	3855.95
410.88	3687.46
411.50	3757.28
412.12	3794.14
412.74	3816.86
413.36	3841.80
413.98	3961.33
414.60	3824.30
415.22	3784.27
415.84	3642.03
416.46	3422.16
417.08	3571.66
417.70	3452.32
418.32	3432.95
418.94	3424.76
419.56	3311.75
420.18	3575.94
420.80	3631.98
421.42	3817.60
422.04	3845.15
422.66	3733.07
423.28	3815.18
423.89	3675.17
424.51	3729.72
425.13	3652.09
425.75	3486.76
426.37	3345.64
426.98	3263.53
427.60	3203.40
428.22	3243.80
428.84	3249.94
429.45	3436.31
430.07	3387.71
430.69	3292.58
431.31	3149.78
431.92	3158.34
432.54	3318.64
433.16	3308.40
433.77	3387.71
434.39	3575.75
435.01	3620.62
435.62	3646.32
436.24	3415.83
436.85	3308.40
437.47	3274.70
438.08	3324.04
438.70	3360.90
439.32	3266.88
439.93	3183.85
440.55	3290.90
441.16	3208.42
441.78	3266.51
442.39	3169.14
443.01	4069.69
443.62	4059.82
444.23	4889.43
444.85	4195.17
445.46	4243.58
446.08	3403.72
446.69	3396.28
447.31	3291.64
447.92	3215.31
448.53	3283.64
449.15	3229.09
449.76	3328.14
450.37	3352.52
450.99	3324.23
451.60	3313.61
452.21	3237.65
452.82	3182.17
453.44	3198.74
454.05	3141.21
454.66	3268.37
455.27	3233.37
455.89	3154.24
456.50	3059.67
457.11	3043.84
457.72	3240.82
458.33	3507.98
458.95	3573.71
459.56	3493.83
460.17	3304.49
460.78	3339.31
461.39	3518.60
462.00	3569.98
462.61	3488.25
463.22	3342.66
463.83	3280.29
464.44	3237.47
465.05	3771.43
465.66	3669.22
466.27	3945.50
466.88	3901.38
467.49	3574.64
468.10	3434.44
468.71	3412.66
469.32	3427.18
469.93	3259.99
470.54	3144.19
471.15	3098.76
471.76	2997.11
472.37	3231.69
472.98	3362.58
473.59	3461.07
474.19	3561.23
474.80	3454.55
475.41	3480.06
476.02	3502.77
476.63	3525.30
477.24	3339.31
477.84	3308.21
478.45	3300.95
479.06	3274.52
479.67	3179.94
480.27	3301.51
480.88	3293.69
481.49	3290.34
482.09	3370.77
482.70	3266.32
483.31	3289.22
483.91	3346.38
484.52	3504.82
485.13	3818.16
485.73	3806.62
486.34	3773.10
486.94	3677.78
487.55	3394.97
488.16	3387.15
488.76	3290.15
489.37	3354.95
489.97	3379.15
490.58	3333.35
491.18	3307.10
491.79	3219.97
492.39	3324.97
493.00	3295.55
493.60	3379.71
494.21	3550.62
494.81	3525.67
495.41	3588.41
496.02	3506.87
496.62	3382.50
497.23	3305.05
497.83	3326.09
498.43	3299.09
499.04	3336.51
499.64	3565.33
500.24	3682.43
500.85	3750.39
501.45	3760.44
502.05	3679.08
502.65	3654.69
503.26	3715.20
503.86	3703.29
504.46	3726.56
505.06	3706.08
505.67	3852.23
506.27	3763.42
506.87	3724.88
507.47	3416.38
508.07	3462.00
508.67	3496.07
509.28	3634.59
509.88	3730.10
510.48	3666.05
511.08	3609.45
511.68	3498.12
512.28	3510.22
512.88	3556.39
513.48	3631.42
514.08	3641.10
514.68	3759.14
515.28	3774.78
515.88	3792.28
516.48	3735.50
517.08	3657.30
517.68	3813.32
518.28	3802.71
518.88	3886.30
519.48	3893.93
520.08	3849.25
520.68	3740.71
521.28	3722.09
521.87	3674.06
522.47	3705.89
523.07	3664.56
523.67	3718.55
524.27	3632.54
524.87	3784.83
525.46	3930.80
526.06	3844.22
526.66	3832.68
527.26	3825.05
527.85	3769.94
528.45	3925.77
529.05	3982.55
529.65	4059.63
530.24	4106.18
530.84	4575.53
531.44	4756.50
532.03	4874.72
532.63	4976.75
533.22	4409.46
533.82	4323.45
534.42	4141.55
535.01	4163.89
535.61	4252.33
536.20	4303.53
536.80	4423.80
537.39	4459.55
537.99	4632.32
538.59	4808.26
539.18	4764.88
539.78	4603.28
540.37	4646.28
540.96	4562.69
541.56	4808.82
542.15	5004.68
542.75	4954.97
543.34	4957.95
543.94	4756.50
544.53	4615.00
545.12	4651.31
545.72	4845.87
546.31	5025.90
546.90	5018.08
547.50	5054.39
548.09	5155.85
548.68	5143.38
549.28	5129.23
549.87	5100.37
550.46	5153.06
551.05	5196.81
551.65	5130.35
552.24	5248.57
552.83	5288.60
553.42	5359.16
554.01	5451.32
554.61	5347.62
555.20	5256.58
555.79	5504.20
556.38	5548.51
556.97	5741.57
557.56	5988.26
558.15	6053.80
558.74	6285.59
559.33	6354.29
559.93	6304.21
560.52	6187.10
561.11	6027.54
561.70	6193.99
562.29	6655.71
562.88	6805.40
563.47	6818.99
564.06	6784.73
564.64	6628.72
565.23	6749.17
565.82	6845.99
566.41	6976.13
567.00	6990.09
567.59	7015.60
568.18	7022.48
568.77	7123.39
569.36	7153.93
569.94	7208.85
570.53	7435.43
571.12	7630.55
571.71	7869.23
572.30	7888.59
572.88	8010.72
573.47	8046.47
574.06	8023.01
574.65	8058.01
575.23	8113.87
575.82	8299.67
576.41	8432.60
576.99	8721.37
577.58	8793.61
578.17	8776.66
578.75	8838.66
579.34	9063.19
579.93	9356.61
580.51	9666.60
581.10	9861.71
581.68	10306.31
582.27	10272.80
582.86	10396.05
583.44	10487.46
584.03	10384.69
584.61	10525.44
585.20	10659.68
585.78	10837.85
586.37	11211.33
586.95	11356.17
587.54	11430.46
588.12	11629.30
588.70	11649.59
589.29	11833.54
589.87	12116.16
590.46	12380.72
591.04	12613.44
591.62	12752.14
592.21	13039.04
592.79	13025.27
593.37	13301.56
593.96	13355.55
594.54	13437.28
595.12	13609.31
595.70	14023.37
596.29	14279.18
596.87	14496.64
597.45	14671.09
598.03	14795.08
598.62	15034.32
599.20	15119.78
599.78	15405.19
600.36	15642.76
600.94	15744.60
601.52	15892.80
602.10	15993.89
602.69	16283.77
603.27	16476.47
603.85	16734.88
604.43	16852.55
605.01	17033.14
605.59	17165.52
606.17	17351.14
606.75	17763.71
607.33	17888.26
607.91	18249.26
608.49	18459.65
609.07	18722.34
609.65	19022.46
610.23	19028.24
610.81	19129.33
611.39	19265.99
611.97	19395.38
612.54	19575.42
613.12	19789.52
613.70	19991.53
614.28	20281.59
614.86	20449.34
615.44	20545.59
616.01	20737.36
616.59	20965.43
617.17	21079.93
617.75	21332.95
618.33	21461.78
618.90	21651.31
619.48	21803.42
620.06	22031.49
620.63	22221.76
621.21	22484.65
621.79	22540.87
622.36	22537.71
622.94	22653.33
623.52	22616.84
624.09	22687.58
624.67	22674.37
625.25	22761.50
625.82	22870.60
626.40	23471.96
626.97	23740.05
627.55	23573.61
628.12	22945.63
628.70	22917.89
629.27	22698.75
629.85	22691.49
630.42	22418.93
631.00	22320.81
631.57	22067.98
632.15	21924.06
632.72	22018.27
633.29	21915.69
633.87	21772.33
634.44	21491.57
635.02	21163.71
635.59	20912.74
636.16	20767.52
636.74	20502.77
637.31	20365.37
637.88	19938.47
638.46	19715.24
639.03	19593.29
639.60	19413.63
640.17	19105.50
640.75	18817.85
641.32	18438.79
641.89	18136.25
642.46	18174.98
643.03	18088.59
643.61	17828.50
644.18	17527.08
644.75	17129.77
645.32	16806.00
645.89	16627.09
646.46	16472.74
647.03	16260.69
647.60	15874.92
648.17	15692.47
648.75	15485.99
649.32	15230.19
649.89	14775.16
650.46	14448.42
651.03	14163.19
651.60	13981.30
652.17	13830.31
652.74	13362.07
653.30	13096.76
653.87	12807.44
654.44	12466.73
655.01	12220.42
655.58	12038.52
656.15	11856.81
656.72	11743.43
657.29	11566.93
657.86	11425.62
658.42	11155.47
658.99	10762.08
659.56	10332.75
660.13	10216.20
660.69	9904.16
661.26	9746.47
661.83	9845.33
662.40	9592.13
662.96	9478.19
663.53	9297.59
664.10	8936.22
664.66	8842.57
665.23	8602.40
665.80	8481.01
666.36	8430.74
666.93	8198.21
667.50	8146.82
668.06	7974.98
668.63	7735.92
669.19	7467.82
669.76	7362.63
670.32	7344.39
670.89	7240.13
671.46	7211.64
672.02	7154.30
672.59	7069.40
673.15	6939.26
673.71	6811.36
674.28	6469.72
674.84	6323.57
675.41	6241.46
675.97	6172.58
676.54	6262.87
677.10	6092.33
677.66	6118.96
678.23	6002.04
678.79	5797.61
679.35	5953.07
679.92	5745.48
680.48	5744.92
681.04	5752.56
681.60	5587.79
682.17	5431.40
682.73	5429.35
683.29	5197.19
683.85	5250.81
684.42	5246.15
684.98	5159.39
685.54	5178.94
686.10	5020.87
686.66	4942.68
687.22	4985.13
687.78	4725.97
688.35	4764.69
688.91	4721.87
689.47	4688.17
690.03	4720.94
690.59	4767.49
691.15	4680.35
691.71	4629.53
692.27	4490.45
692.83	4519.31
693.39	4585.40
693.95	4581.12
694.51	4538.30
695.07	4435.16
695.63	4543.88
696.19	4553.38
696.75	4637.35
697.30	4502.74
697.86	4469.78
698.42	4335.92
698.98	4302.22
699.54	4683.89
700.10	4748.87
700.65	4628.22
701.21	4250.28
701.77	4441.86
702.33	4439.81
702.89	4383.96
703.44	4349.14
704.00	4278.58
704.56	4308.74
705.11	4322.70
705.67	4019.42
706.23	3981.07
706.78	4236.50
707.34	4254.75
707.90	4340.02
708.45	4223.47
709.01	3982.37
709.56	3969.89
710.12	3967.10
710.68	4192.56
711.23	4204.48
711.79	4218.07
712.34	4261.82
712.90	4250.28
713.45	4410.77
714.01	4467.92
714.56	4975.26
715.12	4725.41
715.67	4727.27
716.22	4653.36
716.78	3922.42
717.33	3921.30
717.89	4764.32
718.44	4898.74
718.99	4939.70
719.55	4935.23
720.10	4178.97
720.65	3925.21
721.21	3935.82
721.76	3854.65
722.31	3890.95
722.86	4136.52
723.42	4095.75
723.97	4143.23
724.52	4069.50
725.07	3803.26
725.62	3770.12
726.18	3819.65
726.73	3840.13
727.28	3934.33
727.83	3895.42
728.38	3947.55
728.93	3865.63
729.48	3768.63
730.03	3673.87
730.58	3666.24
731.13	3744.06
731.69	3769.57
732.24	3794.33
732.79	3789.11
733.34	3666.61
733.89	3552.11
734.43	3603.12
734.98	3689.51
735.53	3875.32
736.08	3893.75
736.63	3899.89
737.18	3848.32
737.73	3769.75
738.28	3790.42
738.83	3965.98
739.38	3879.23
739.92	3990.75
740.47	3952.77
741.02	4008.43
741.57	4170.22
742.11	4025.00
742.66	4136.52
743.21	3862.84
743.76	3687.09
744.30	3832.49
744.85	3845.15
745.40	3890.40
745.94	3854.84
746.49	3960.59
747.04	3849.81
747.58	3718.55
748.13	3651.90
748.68	3559.74
749.22	3525.67
749.77	3626.77
750.31	3838.27
750.86	3852.42
751.40	3875.32
751.95	3717.99
752.49	3591.76
753.04	3652.65
753.58	3704.59
754.13	3878.67
754.67	3947.55
755.22	3907.71
755.76	3896.17
756.30	3945.50
756.85	3741.64
757.39	3675.73
757.94	3737.54
758.48	3658.42
759.02	3700.68
759.57	3778.69
760.11	3915.16
760.65	3850.74
761.19	3846.09
761.74	3865.26
762.28	3914.60
762.82	3910.69
763.36	4007.87
763.91	3934.71
764.45	3866.57
764.99	3898.96
765.53	3883.88
766.07	3736.05
766.61	3714.27
767.16	3677.78
767.70	3643.34
768.24	3636.26
768.78	3595.30
769.32	3483.41
769.86	3609.64
770.40	3658.98
770.94	3761.93
771.48	3867.68
772.02	3757.84
772.56	3913.30
773.10	3861.17
773.64	3792.65
774.18	3823.19
774.72	3668.84
775.26	3688.76
775.80	3748.90
776.33	3716.13
776.87	3771.99
777.41	3652.83
777.95	3731.59
778.49	3849.44
779.03	3712.59
779.56	3919.44
780.10	3814.99
780.64	3845.15
781.18	3816.48
781.71	3664.37
782.25	3571.66
782.79	3662.14
783.33	4286.40
783.86	4245.44
784.40	4365.90
784.94	4290.31
785.47	3619.51
786.01	3553.60
786.54	3428.30
787.08	3478.94
787.62	3560.67
788.15	3534.79
788.69	3524.18
789.22	3526.04
789.76	3439.28
790.29	3511.15
790.83	3437.79
791.36	3560.49
791.90	3759.14
792.43	3854.46
792.97	3813.13
793.50	3776.27
794.03	3760.26
794.57	3718.93
795.10	3720.04
795.64	3673.87
796.17	3564.40
796.70	3489.37
797.24	3445.80
797.77	3463.67
798.30	3502.77
798.83	3645.20
799.37	3760.26
799.90	3782.23
800.43	3759.51
800.96	3664.37
801.50	3652.65
802.03	3702.36
802.56	3798.42
803.09	3824.30
803.62	3905.48
804.15	3966.92
804.69	3829.33
805.22	3655.62
805.75	3571.10
806.28	3466.28
806.81	3617.83
807.34	3595.49
807.87	3616.15
808.40	3738.29
808.93	3607.78
809.46	3561.98
809.99	3424.20
810.52	3440.77
811.05	3544.10
811.58	3473.73
812.11	3563.28
812.64	3517.11
813.16	3516.18
813.69	3570.91
814.22	3408.01
814.75	3396.46
815.28	3431.46
815.81	3508.92
816.34	3488.81
816.86	3413.03
817.39	3405.77
817.92	3382.69
818.45	3430.53
818.97	3451.20
819.50	3524.37
820.03	3612.99
820.55	3819.65
821.08	3973.80
821.61	3884.62
822.13	3714.83
822.66	3629.56
823.19	3495.32
823.71	3564.40
824.24	3581.15
824.76	3352.15
825.29	3283.27
825.81	3184.22
826.34	3212.52
826.87	3346.19
827.39	3354.57
827.91	3366.86
828.44	3458.09
828.96	3491.60
829.49	3590.83
830.01	3702.36
830.54	3702.36
831.06	3686.90
831.58	3531.82
832.11	3505.19
832.63	3435.00
833.16	3417.13
833.68	3515.62
834.20	3480.24
834.72	3681.50
835.25	3867.31
835.77	3782.41
836.29	3647.80
836.81	3450.64
837.34	3374.68
837.86	3315.48
838.38	3329.62
838.90	3266.70
839.42	3278.24
839.95	3196.32
840.47	3204.70
840.99	3301.51
841.51	3367.05
842.03	3417.87
842.55	3467.58
843.07	3462.93
843.59	3458.27
844.11	3574.26
844.63	3499.05
845.15	3516.18
845.67	3362.21
846.19	3369.09
846.71	3443.94
847.23	3465.91
847.75	3487.13
848.27	3518.60
848.79	3524.93
849.31	3473.91
849.83	3567.56
850.34	3724.51
850.86	3784.65
851.38	3823.74
851.90	3739.78
852.42	3498.30
852.93	3339.31
853.45	3317.15
853.97	3410.61
854.49	3317.15
855.00	3423.83
855.52	3459.21
856.04	3481.36
856.56	3644.08
857.07	3474.10
857.59	3592.14
858.10	3756.72
858.62	3597.72
859.14	3590.83
859.65	3475.59
860.17	3419.18
860.68	3353.08
861.20	3310.63
861.71	3246.78
862.23	3638.50
862.74	3702.17
863.26	3728.23
863.77	3624.53
864.29	3449.52
864.80	3427.18
865.32	3369.65
865.83	3342.66
866.35	3438.35
866.86	3429.60
867.37	3434.63
867.89	3372.26
868.40	3212.89
868.91	3266.32
869.43	3152.20
869.94	3250.50
870.45	3213.26
870.96	3252.36
871.48	3328.69
871.99	3372.07
872.50	3419.74
873.01	3292.39
873.53	3285.87
874.04	3255.71
874.55	3363.70
875.06	3416.01
875.57	3411.17
876.08	3341.35
876.59	3272.10
877.10	3323.67
877.61	3193.34
878.13	3291.09
878.64	3305.98
879.15	3388.27
879.66	3402.61
880.17	3455.67
880.68	3609.08
881.19	3631.79
881.69	3636.63
882.20	3692.30
882.71	3556.20
883.22	3468.89
883.73	3531.44
884.24	3455.30
884.75	3580.41
885.26	3733.07
885.77	3660.84
886.27	3655.07
886.78	3629.56
887.29	3527.53
887.80	3450.08
888.30	3286.80
888.81	3443.38
889.32	3430.35
889.83	3514.87
890.33	3569.42
890.84	3569.24
891.35	3917.76
891.68	3461.07