File: Experiment 3 - Quantum Dots/Spectroscopy/Cenco Quantum Dots/yellow.txt
# Wavelength (nm), Intensity (colors)
175.94	1253.36
176.61	1312.75
177.27	2897.13
177.93	3561.98
178.59	3747.41
179.25	3742.57
179.91	3742.76
180.58	3654.32
181.24	3639.43
181.90	3518.41
182.56	3529.77
183.22	3518.60
183.88	3418.06
184.54	3481.73
185.20	3506.12
185.86	3553.97
186.52	3726.19
187.18	3807.55
187.84	3807.17
188.50	3781.85
189.16	3686.53
189.82	3498.68
190.48	3462.93
191.14	3411.92
191.80	3522.69
192.46	3627.14
193.12	3560.49
193.78	3407.26
194.44	3531.63
195.10	3598.09
195.76	3585.81
196.42	3509.66
197.08	3337.63
197.73	3341.54
198.39	3410.80
199.05	3479.69
199.71	3661.58
200.37	3481.36
201.03	3345.26
201.68	3406.70
202.34	3342.29
203.00	3473.54
203.66	3475.59
204.31	3475.22
204.97	3401.68
205.63	3768.45
206.29	3995.96
206.94	4027.61
207.60	3871.59
208.26	3566.63
208.91	3478.75
209.57	3440.59
210.23	3483.22
210.88	3550.06
211.54	3529.95
212.20	3709.80
212.85	3463.49
213.51	3359.97
214.17	3366.67
214.82	3169.88
215.48	3290.90
216.13	3484.15
216.79	3505.56
217.44	3645.38
218.10	3496.07
218.75	3429.23
219.41	3475.03
220.06	3474.66
220.72	3509.47
221.37	3624.35
222.03	3594.93
222.68	3761.19
223.34	3792.65
223.99	3810.15
224.65	3659.72
225.30	3512.08
225.95	3549.69
226.61	3483.41
227.26	3730.10
227.92	3863.03
228.57	3622.67
229.22	3424.02
229.88	3388.46
230.53	3354.57
231.18	3507.43
231.84	3560.49
232.49	3596.61
233.14	3558.44
233.79	3416.94
234.45	3407.08
235.10	3346.38
235.75	3350.48
236.40	3446.92
237.06	3519.34
237.71	3589.53
238.36	3518.78
239.01	3283.82
239.66	3125.76
240.31	3207.49
240.97	3314.54
241.62	3313.43
242.27	3286.99
242.92	3274.52
243.57	3192.04
244.22	3570.17
244.87	3663.63
245.52	3566.82
246.17	3473.17
246.82	3278.05
247.47	3294.06
248.13	3390.51
248.78	3444.31
249.43	3349.17
250.08	3367.61
250.73	3324.97
251.37	3426.62
252.02	3660.65
252.67	3647.99
253.32	3552.67
253.97	3453.25
254.62	3215.12
255.27	3147.17
255.92	3129.30
256.57	3146.42
257.22	3291.46
257.87	3310.63
258.51	3259.99
259.16	3244.17
259.81	3129.67
260.46	3179.56
261.11	3260.92
261.76	3393.48
262.40	3385.11
263.05	3388.27
263.70	3381.75
264.35	3273.58
264.99	3248.08
265.64	3203.02
266.29	3311.01
266.94	3416.76
267.58	3403.17
268.23	3372.63
268.88	3263.90
269.52	3236.54
270.17	3409.31
270.82	3439.10
271.46	3750.02
272.11	3826.72
272.75	3798.61
273.40	3730.84
274.05	3460.14
274.69	3321.99
275.34	3302.63
275.98	3376.54
276.63	3468.14
277.27	3309.70
277.92	3298.72
278.56	3365.93
279.21	3429.23
279.85	3484.53
280.50	3596.61
281.14	3649.29
281.79	3422.90
282.43	3368.54
283.08	3192.22
283.72	3285.69
284.36	3270.05
285.01	3258.13
285.65	3355.69
286.30	3302.63
286.94	3389.02
287.58	3265.58
288.23	3186.08
288.87	3172.86
289.51	3032.48
290.16	3067.30
290.80	3231.51
291.44	3268.56
292.08	3402.23
292.73	3529.58
293.37	3433.33
294.01	3621.74
294.65	3763.98
295.30	3591.21
295.94	3662.14
296.58	3474.29
297.22	3405.03
297.86	3457.53
298.51	3299.65
299.15	3333.16
299.79	3390.51
300.43	3276.94
301.07	3491.60
301.71	3432.58
302.35	3331.67
302.99	3381.20
303.63	3249.94
304.28	3324.41
304.92	3413.03
305.56	3411.92
306.20	3338.75
306.84	3342.10
307.48	3287.73
308.12	3315.29
308.76	3337.26
309.40	3146.05
310.04	2986.12
310.67	3035.83
311.31	3165.41
311.95	3305.05
312.59	3267.81
313.23	3376.54
313.87	3215.12
314.51	3203.95
315.15	3252.55
315.79	3191.67
316.42	3186.64
317.06	3212.89
317.70	3033.79
318.34	3069.91
318.98	3033.04
319.62	3163.55
320.25	3239.89
320.89	3245.10
321.53	3152.01
322.17	3129.67
322.80	3053.71
323.44	3264.65
324.08	3272.28
324.71	3311.38
325.35	3306.91
325.99	3277.31
326.62	3380.45
327.26	3208.42
327.90	3186.64
328.53	3260.18
329.17	3210.66
329.81	3303.93
330.44	3302.44
331.08	3224.43
331.71	3321.25
332.35	3316.59
332.98	3282.89
333.62	3261.30
334.25	3292.02
334.89	3205.44
335.52	3085.17
336.16	3177.14
336.79	3141.77
337.43	3068.60
338.06	3069.16
338.70	3100.44
339.33	3102.86
339.97	3200.98
340.60	3364.44
341.23	3327.02
341.87	3299.65
342.50	3270.42
343.14	3162.99
343.77	3111.80
344.40	3213.64
345.04	3141.21
345.67	3215.31
346.30	3290.15
346.94	3249.75
347.57	3284.94
348.20	3256.46
348.83	3355.88
349.47	3360.72
350.10	3423.09
350.73	3394.60
351.36	3306.91
351.99	3308.21
352.63	3330.00
353.26	3239.51
353.89	3099.32
354.52	3079.77
355.15	3132.09
355.78	3268.37
356.42	3349.92
357.05	3405.96
357.68	3396.46
358.31	3191.11
358.94	3186.45
359.57	3325.34
360.20	3402.42
360.83	3399.81
361.46	3351.41
362.09	3232.07
362.72	3275.07
363.35	3279.36
363.98	3264.46
364.61	3539.63
365.24	3666.79
365.87	3572.77
366.50	3674.99
367.13	3677.78
367.76	3393.30
368.39	3579.85
369.01	3466.65
369.64	3427.74
370.27	3399.26
370.90	3235.79
371.53	3227.60
372.16	3280.66
372.79	3409.50
373.41	3386.97
374.04	3443.19
374.67	3481.55
375.30	3420.11
375.92	3148.10
376.55	3268.19
377.18	3479.69
377.81	3502.77
378.43	3629.37
379.06	3481.36
379.69	3510.59
380.31	3512.64
380.94	3597.35
381.57	3637.19
382.19	3397.58
382.82	3356.99
383.45	3350.85
384.07	3296.67
384.70	3448.59
385.32	3306.91
385.95	3291.27
386.58	3405.40
387.20	3377.85
387.83	3470.38
388.45	3517.67
389.08	3478.57
389.70	3491.04
390.33	3661.95
390.95	3845.34
391.58	4004.34
392.20	3935.64
392.82	3958.17
393.45	3941.04
394.07	4181.21
394.70	4399.41
395.32	4501.06
395.94	4715.54
396.57	4628.04
397.19	4779.03
397.82	4775.68
398.44	4919.59
399.06	5290.83
399.69	5482.60
400.31	5628.19
400.93	5616.65
401.55	5556.51
402.18	5697.82
402.80	5779.55
403.42	5984.35
404.04	5972.81
404.67	5933.90
405.29	5873.76
405.91	5564.33
406.53	5365.49
407.15	5294.56
407.77	5059.04
408.40	4859.46
409.02	4914.75
409.64	4752.59
410.26	4704.00
410.88	4479.65
411.50	4459.73
412.12	4452.66
412.74	4400.90
413.36	4389.17
413.98	4445.95
414.60	4281.19
415.22	4203.18
415.84	4033.01
416.46	3794.89
417.08	3908.83
417.70	3809.78
418.32	3736.43
418.94	3710.73
419.56	3575.38
420.18	3809.22
420.80	3844.41
421.42	4003.59
422.04	4024.63
422.66	3899.15
423.28	3965.98
423.89	3830.63
424.51	3875.32
425.13	3768.63
425.75	3586.92
426.37	3433.14
426.98	3337.07
427.60	3266.14
428.22	3312.87
428.84	3299.09
429.45	3483.97
430.07	3433.14
430.69	3342.10
431.31	3200.23
431.92	3236.91
432.54	3394.42
433.16	3365.56
433.77	3438.35
434.39	3659.53
435.01	3701.42
435.62	3726.37
436.24	3478.94
436.85	3364.25
437.47	3343.40
438.08	3365.19
438.70	3400.75
439.32	3308.96
439.93	3238.96
440.55	3367.98
441.16	3264.65
441.78	3290.90
442.39	3178.82
443.01	4050.88
443.62	4044.18
444.23	4863.37
444.85	4185.68
445.46	4244.32
446.08	3435.19
446.69	3408.94
447.31	3322.74
447.92	3255.90
448.53	3336.51
449.15	3296.11
449.76	3388.64
450.37	3391.06
450.99	3364.44
451.60	3351.22
452.21	3283.64
452.82	3240.26
453.44	3232.81
454.05	3185.89
454.66	3311.57
455.27	3263.90
455.89	3190.18
456.50	3119.99
457.11	3101.00
457.72	3295.00
458.33	3561.42
458.95	3606.10
459.56	3521.20
460.17	3351.04
460.78	3406.33
461.39	3596.05
462.00	3663.26
462.61	3591.39
463.22	3437.42
463.83	3349.17
464.44	3324.04
465.05	3836.59
465.66	3722.83
466.27	4027.24
466.88	3972.31
467.49	3684.11
468.10	3564.21
468.71	3547.45
469.32	3577.80
469.93	3421.04
470.54	3298.91
471.15	3261.48
471.76	3147.54
472.37	3381.38
472.98	3518.04
473.59	3608.71
474.19	3708.87
474.80	3625.84
475.41	3656.93
476.02	3706.64
476.63	3709.62
477.24	3536.84
477.84	3518.78
478.45	3544.66
479.06	3550.81
479.67	3478.94
480.27	3591.21
480.88	3569.98
481.49	3535.54
482.09	3619.51
482.70	3560.86
483.31	3597.35
483.91	3693.42
484.52	3871.59
485.13	4177.11
485.73	4175.62
486.34	4175.99
486.94	4079.74
487.55	3799.73
488.16	3835.85
488.76	3747.78
489.37	3830.45
489.97	3860.79
490.58	3845.53
491.18	3797.49
491.79	3732.52
492.39	3848.32
493.00	3853.90
493.60	3959.10
494.21	4160.91
494.81	4171.90
495.41	4229.06
496.02	4178.60
496.62	4061.68
497.23	4022.58
497.83	4074.71
498.43	4080.11
499.04	4142.30
499.64	4373.53
500.24	4503.48
500.85	4598.81
501.45	4648.70
502.05	4642.93
502.65	4643.12
503.26	4723.36
503.86	4711.82
504.46	4734.53
505.06	4755.38
505.67	4938.77
506.27	4882.36
506.87	4834.14
507.47	4570.69
508.07	4668.25
508.67	4763.76
509.28	4950.69
509.88	5080.45
510.48	5052.15
511.08	5034.47
511.68	4977.68
512.28	5023.48
512.88	5112.66
513.48	5248.01
514.08	5323.79
514.68	5485.02
515.28	5558.19
515.88	5624.09
516.48	5606.59
517.08	5565.82
517.68	5762.61
518.28	5776.02
518.88	5924.40
519.48	5988.63
520.08	6008.93
520.68	5957.73
521.28	5989.56
521.87	6008.93
522.47	6092.15
523.07	6118.40
523.67	6215.40
524.27	6173.14
524.87	6390.78
525.46	6579.01
526.06	6570.44
526.66	6589.99
527.26	6628.72
527.85	6619.04
528.45	6801.86
529.05	6955.65
529.65	7084.85
530.24	7202.89
530.84	7721.77
531.44	7943.33
532.03	8134.72
532.63	8266.91
533.22	7761.80
533.82	7742.44
534.42	7611.00
535.01	7671.88
535.61	7783.03
536.20	7887.29
536.80	8097.85
537.39	8176.24
537.99	8408.03
538.59	8650.62
539.18	8650.06
539.78	8530.72
540.37	8574.10
540.96	8511.17
541.56	8804.22
542.15	9039.36
542.75	9061.14
543.34	9128.54
543.94	8975.32
544.53	8869.19
545.12	8895.45
545.72	9119.05
546.31	9356.42
546.90	9395.89
547.50	9460.50
548.09	9563.83
548.68	9588.03
549.28	9612.23
549.87	9648.54
550.46	9766.20
551.05	9829.69
551.65	9773.09
552.24	9936.37
552.83	9966.91
553.42	10048.82
554.01	10122.92
554.61	9994.46
555.20	9844.21
555.79	10075.63
556.38	10087.55
556.97	10245.06
557.56	10465.87
558.15	10497.52
558.74	10688.16
559.33	10722.42
559.93	10633.24
560.52	10474.06
561.11	10264.42
561.70	10340.57
562.29	10705.85
562.88	10778.65
563.47	10712.74
564.06	10584.46
564.64	10331.44
565.23	10375.38
565.82	10384.69
566.41	10429.93
567.00	10339.82
567.59	10232.96
568.18	10140.61
568.77	10103.37
569.36	10018.29
569.94	9944.94
570.53	10045.29
571.12	10078.43
571.71	10105.79
572.30	9963.37
572.88	9876.98
573.47	9726.92
574.06	9544.28
574.65	9409.11
575.23	9290.89
575.82	9315.84
576.41	9268.92
576.99	9347.12
577.58	9218.09
578.17	8941.62
578.75	8741.29
579.34	8704.61
579.93	8761.96
580.51	8855.23
581.10	8799.19
581.68	9010.88
582.27	8730.49
582.86	8619.53
583.44	8475.43
584.03	8132.67
584.61	8006.07
585.20	7940.72
585.78	7884.87
586.37	8008.30
586.95	7959.90
587.54	7738.16
588.12	7667.60
588.70	7416.44
589.29	7330.98
589.87	7297.10
590.46	7291.51
591.04	7280.34
591.62	7116.69
592.21	7177.01
592.79	6898.68
593.37	6914.50
593.96	6710.64
594.54	6508.63
595.12	6345.35
595.70	6458.92
596.29	6421.69
596.87	6398.41
597.45	6320.03
598.03	6194.73
598.62	6133.48
599.20	5938.55
599.78	5964.80
600.36	5930.92
600.94	5760.94
601.52	5666.92
602.10	5478.87
602.69	5534.91
603.27	5511.64
603.85	5547.02
604.43	5484.09
605.01	5388.21
605.59	5219.53
606.17	5149.90
606.75	5270.73
607.33	5231.44
607.91	5330.86
608.49	5307.22
609.07	5391.74
609.65	5398.26
610.23	5272.77
610.81	5106.14
611.39	5016.59
611.97	4923.69
612.54	4850.52
613.12	4856.85
613.70	4836.37
614.28	4953.11
614.86	4916.99
615.44	4800.62
616.01	4763.76
616.59	4727.46
617.17	4687.61
617.75	4759.48
618.33	4732.67
618.90	4746.45
619.48	4679.42
620.06	4685.75
620.63	4752.22
621.21	4887.57
621.79	4830.23
622.36	4641.07
622.94	4631.20
623.52	4489.89
624.09	4520.61
624.67	4510.93
625.25	4519.87
625.82	4590.62
626.40	5100.75
626.97	5379.27
627.55	5262.53
628.12	4755.94
628.70	4766.00
629.27	4625.24
629.85	4692.83
630.42	4496.59
631.00	4496.04
631.57	4415.79
632.15	4418.59
632.72	4609.98
633.29	4656.15
633.87	4635.30
634.44	4547.98
635.02	4411.88
635.59	4379.49
636.16	4473.88
636.74	4403.69
637.31	4470.72
637.88	4264.80
638.46	4237.06
639.03	4315.81
639.60	4353.98
640.17	4271.88
640.75	4215.46
641.32	4120.14
641.89	4053.12
642.46	4315.44
643.03	4469.04
643.61	4454.33
644.18	4435.90
644.75	4293.85
645.32	4257.17
645.89	4305.20
646.46	4388.05
647.03	4468.67
647.60	4365.34
648.17	4442.79
648.75	4557.85
649.32	4487.84
649.89	4289.94
650.46	4267.97
651.03	4209.69
651.60	4337.04
652.17	4451.17
652.74	4228.12
653.30	4245.07
653.87	4184.37
654.44	4079.37
655.01	4103.38
655.58	4146.39
656.15	4199.64
656.72	4284.91
657.29	4296.45
657.86	4364.04
658.42	4351.56
658.99	4196.66
659.56	3998.75
660.13	4043.99
660.69	3967.85
661.26	4022.02
661.83	4291.05
662.40	4238.74
662.96	4289.19
663.53	4256.24
664.10	4096.50
664.66	4161.10
665.23	4106.18
665.80	4175.99
666.36	4289.94
666.93	4250.84
667.50	4308.74
668.06	4269.27
668.63	4144.34
669.19	3998.19
669.76	4041.39
670.32	4167.62
670.89	4186.23
671.46	4290.31
672.02	4337.23
672.59	4406.30
673.15	4383.58
673.71	4347.47
674.28	4064.47
674.84	3978.64
675.41	4000.06
675.97	4051.44
676.54	4249.91
677.10	4145.83
677.66	4241.90
678.23	4227.19
678.79	4097.43
679.35	4321.21
679.92	4184.37
680.48	4229.61
681.04	4320.10
681.60	4216.21
682.17	4123.68
682.73	4160.91
683.29	4013.83
683.85	4099.66
684.42	4149.18
684.98	4113.25
685.54	4157.75
686.10	4075.83
686.66	4057.96
687.22	4146.21
687.78	3899.89
688.35	3975.85
688.91	3972.31
689.47	3979.20
690.03	4050.32
690.59	4110.65
691.15	4065.03
691.71	4045.11
692.27	3929.87
692.83	3965.61
693.39	4022.40
693.95	4053.12
694.51	4021.65
695.07	3960.77
695.63	4103.20
696.19	4156.63
696.75	4278.95
697.30	4156.45
697.86	4140.43
698.42	4010.85
698.98	3985.72
699.54	4358.82
700.10	4428.83
700.65	4324.19
701.21	3976.04
701.77	4194.05
702.33	4206.53
702.89	4144.16
703.44	4104.87
704.00	4012.72
704.56	4057.96
705.11	4115.49
705.67	3861.91
706.23	3843.48
706.78	4072.85
707.34	4079.18
707.90	4182.14
708.45	4075.46
709.01	3877.74
709.56	3859.30
710.12	3842.92
710.68	4074.15
711.23	4096.50
711.79	4146.95
712.34	4182.88
712.90	4155.70
713.45	4306.69
714.01	4356.59
714.56	4850.89
715.12	4592.85
715.67	4613.52
716.22	4523.22
716.78	3854.84
717.33	3848.32
717.89	4675.51
718.44	4821.10
718.99	4858.53
719.55	4847.36
720.10	4091.47
720.65	3848.32
721.21	3854.65
721.76	3794.14
722.31	3863.21
722.86	4092.21
723.42	4063.17
723.97	4089.98
724.52	4011.23
725.07	3747.97
725.62	3717.62
726.18	3796.93
726.73	3837.89
727.28	3931.54
727.83	3882.20
728.38	3919.25
728.93	3829.89
729.48	3730.47
730.03	3628.63
730.58	3623.97
731.13	3705.71
731.69	3746.11
732.24	3760.26
732.79	3750.20
733.34	3630.86
733.89	3536.47
734.43	3587.48
734.98	3655.44
735.53	3842.55
736.08	3873.83
736.63	3879.23
737.18	3802.15
737.73	3732.70
738.28	3762.49
738.83	3917.39
739.38	3843.85
739.92	3966.73
740.47	3936.38
741.02	4001.92
741.57	4149.00
742.11	3959.28
742.66	4062.24
743.21	3792.65
743.76	3629.19
744.30	3790.60
744.85	3797.86
745.40	3835.85
745.94	3782.23
746.49	3881.27
747.04	3781.30
747.58	3667.17
748.13	3610.94
748.68	3505.75
749.22	3487.88
749.77	3613.73
750.31	3835.29
750.86	3863.40
751.40	3871.22
751.95	3709.24
752.49	3549.32
753.04	3586.92
753.58	3615.60
754.13	3787.25
754.67	3863.96
755.22	3831.75
755.76	3831.75
756.30	3882.39
756.85	3692.30
757.39	3627.51
757.94	3693.42
758.48	3615.22
759.02	3660.84
759.57	3732.70
760.11	3850.93
760.65	3798.42
761.19	3775.34
761.74	3816.67
762.28	3872.71
762.82	3868.43
763.36	3950.35
763.91	3867.87
764.45	3788.37
764.99	3819.09
765.53	3840.31
766.07	3691.74
766.61	3655.25
767.16	3602.00
767.70	3558.25
768.24	3554.72
768.78	3534.98
769.32	3427.18
769.86	3560.49
770.40	3617.64
770.94	3704.78
771.48	3824.49
772.02	3717.81
772.56	3857.81
773.10	3809.04
773.64	3735.50
774.18	3744.62
774.72	3600.33
775.26	3631.42
775.80	3701.80
776.33	3692.86
776.87	3746.67
777.41	3604.42
777.95	3661.02
778.49	3735.68
779.03	3589.16
779.56	3788.56
780.10	3712.04
780.64	3776.27
781.18	3734.56
781.71	3603.12
782.25	3507.05
782.79	3582.08
783.33	4211.18
783.86	4158.68
784.40	4255.87
784.94	4184.00
785.47	3534.42
786.01	3474.10
786.54	3382.31
787.08	3431.84
787.62	3501.84
788.15	3467.02
788.69	3467.58
789.22	3494.58
789.76	3416.38
790.29	3492.72
790.83	3408.38
791.36	3513.94
791.90	3706.45
792.43	3766.77
792.97	3730.65
793.50	3701.98
794.03	3705.15
794.57	3703.29
795.10	3702.73
795.64	3649.11
796.17	3526.60
796.70	3479.69
797.24	3415.83
797.77	3422.90
798.30	3445.99
798.83	3530.51
799.37	3640.17
799.90	3683.36
800.43	3680.94
800.96	3606.47
801.50	3601.26
802.03	3649.29
802.56	3739.22
803.09	3785.58
803.62	3865.82
804.15	3913.67
804.69	3778.69
805.22	3594.00
805.75	3523.44
806.28	3423.09
806.81	3568.49
807.34	3534.98
807.87	3562.53
808.40	3672.38
808.93	3539.63
809.46	3491.41
809.99	3340.05
810.52	3387.90
811.05	3482.29
811.58	3399.26
812.11	3482.11
812.64	3421.78
813.16	3407.08
813.69	3458.65
814.22	3330.00
814.75	3381.94
815.28	3430.91
815.81	3518.41
816.34	3489.37
816.86	3368.91
817.39	3355.69
817.92	3340.42
818.45	3379.71
818.97	3405.21
819.50	3492.16
820.03	3572.40
820.55	3762.68
821.08	3907.52
821.61	3828.58
822.13	3647.25
822.66	3577.62
823.19	3458.27
823.71	3524.18
824.24	3534.61
824.76	3292.95
825.29	3247.89
825.81	3174.17
826.34	3202.46
826.87	3352.71
827.39	3341.35
827.91	3326.27
828.44	3404.47
828.96	3435.93
829.49	3521.20
830.01	3644.45
830.54	3647.80
831.06	3632.17
831.58	3486.57
832.11	3460.32
832.63	3434.44
833.16	3421.97
833.68	3509.47
834.20	3472.05
834.72	3648.55
835.25	3828.77
835.77	3775.34
836.29	3645.76
836.81	3463.86
837.34	3354.95
837.86	3276.19
838.38	3280.66
838.90	3196.51
839.42	3215.87
839.95	3131.53
840.47	3144.56
840.99	3249.57
841.51	3297.97
842.03	3350.29
842.55	3413.59
843.07	3399.07
843.59	3413.78
844.11	3540.57
844.63	3459.58
845.15	3479.69
845.67	3298.16
846.19	3286.43
846.71	3384.36
847.23	3395.90
847.75	3414.52
848.27	3439.10
848.79	3444.12
849.31	3399.63
849.83	3517.29
850.34	3661.21
850.86	3714.83
851.38	3763.24
851.90	3683.18
852.42	3459.76
852.93	3312.12
853.45	3286.80
853.97	3376.91
854.49	3297.42
855.00	3405.40
855.52	3440.77
856.04	3447.66
856.56	3606.10
857.07	3434.63
857.59	3548.20
858.10	3722.28
858.62	3564.21
859.14	3555.83
859.65	3444.50
860.17	3389.76
860.68	3297.97
861.20	3251.24
861.71	3192.78
862.23	3588.23
862.74	3662.51
863.26	3711.48
863.77	3608.89
864.29	3436.12
864.80	3403.54
865.32	3340.98
865.83	3304.30
866.35	3377.85
866.86	3364.81
867.37	3393.48
867.89	3335.77
868.40	3197.81
868.91	3248.82
869.43	3126.32
869.94	3210.47
870.45	3152.01
870.96	3196.32
871.48	3284.57
871.99	3335.58
872.50	3400.37
873.01	3282.71
873.53	3232.44
874.04	3210.84
874.55	3305.79
875.06	3362.39
875.57	3394.60
876.08	3343.40
876.59	3245.47
877.10	3293.32
877.61	3156.29
878.13	3256.46
878.64	3265.95
879.15	3348.62
879.66	3353.46
880.17	3418.06
880.68	3577.06
881.19	3588.04
881.69	3593.44
882.20	3645.57
882.71	3514.87
883.22	3455.11
883.73	3498.49
884.24	3423.46
884.75	3529.39
885.26	3688.95
885.77	3616.53
886.27	3613.36
886.78	3593.07
887.29	3480.80
887.80	3420.29
888.30	3265.95
888.81	3432.95
889.32	3446.36
889.83	3531.44
890.33	3570.91
890.84	3547.83
891.35	3833.80
891.68	3522.51